subj_idx,trial,response,rt,resp
2b3o5c2c6ntefnb,18,0,0.771649999980582,1
2b3o5c2c6ntefnb,47,0,0.626894999993965,1
2b3o5c2c6ntefnb,77,0,0.744639999989886,1
2b3o5c2c6ntefnb,93,0,0.612550000019837,1
2b3o5c2c6ntefnb,98,0,0.639809999993304,1
2b3o5c2c6ntefnb,107,0,0.675619999994524,1
2b3o5c2c6ntefnb,144,0,0.917779999988852,1
2b3o5c2c6ntefnb,167,0,1.86870000002091,1
2b3o5c2c6ntefnb,183,1,1.41109999999753,0
2b3o5c2c6ntefnb,184,0,1.45837500001653,1
2b3o5c2c6ntefnb,188,0,1.12218000000576,1
2b3o5c2c6ntefnb,206,0,0.909610000002431,1
2b3o5c2c6ntefnb,225,1,0.768359999987297,0
2b3o5c2c6ntefnb,253,1,1.59866499999771,0
2b3o5c2c6ntefnb,254,1,0.885684999986552,0
2b3o5c2c6ntefnb,267,1,1.9533250000095,0
2b3o5c2c6ntefnb,289,1,0.972780000010971,0
2b3o5c2c6ntefnb,296,1,1.08806999999797,0
2b3o5c2c6ntefnb,346,0,1.27014500001678,1
2b3o5c2c6ntefnb,348,0,0.769945000007283,1
2b3o5c2c6ntefnb,361,0,1.11963499998092,1
2b3o5c2c6ntefnb,365,0,1.09799499998917,1
2b3o5c2c6ntefnb,393,0,1.33203999997932,1
2b3o5c2c6ntefnb,405,0,1.28086500000791,1
2b3o5c2c6ntefnb,450,0,0.926299999991898,1
2b3o5c2c6ntefnb,454,0,0.851665000023786,1
2b3o5c2c6ntefnb,459,0,1.0519000000204,1
2b3o5c2c6ntefnb,476,0,0.968184999976075,1
2b3o5c2c6ntefnb,484,0,0.990699999994831,1
2b3o5c2c6ntefnb,505,0,2.89602499999455,1
2b3o5c2c6ntefnb,557,0,0.910569999978179,1
2b3o5c2c6ntefnb,568,1,1.78063000002294,0
2b3o5c2c6ntefnb,572,0,1.33517999999458,1
2b3o5c2c6ntefnb,574,0,0.925119999999879,1
2b3o5c2c6ntefnb,585,0,0.926845000009052,1
2b3o5c2c6ntefnb,601,0,0.827294999995502,1
7chb1ucy8l7g29z,20,0,0.16800000006333,1
7chb1ucy8l7g29z,21,0,0.179000000003725,1
7chb1ucy8l7g29z,89,0,2.62300000013784,1
7chb1ucy8l7g29z,96,0,0.101000000257045,1
7chb1ucy8l7g29z,185,1,0.101000000257045,0
7chb1ucy8l7g29z,191,1,0.117000000085682,0
7chb1ucy8l7g29z,263,1,0.121999999973923,0
7chb1ucy8l7g29z,305,1,0.185000000055879,0
7chb1ucy8l7g29z,396,1,0.228999999817461,0
7chb1ucy8l7g29z,421,0,0.162000000011176,1
7chb1ucy8l7g29z,486,1,0.149999999906868,0
7chb1ucy8l7g29z,591,1,0.188000000081956,0
7chb1ucy8l7g29z,606,0,0.117999999783933,1
7chb1ucy8l7g29z,613,1,0.120000000111759,0
7chb1ucy8l7g29z,630,0,2.52100000018254,1
89kh34yu75hv3l2,11,1,2.01286999997683,0
89kh34yu75hv3l2,24,1,1.26856999984011,0
89kh34yu75hv3l2,27,1,1.40351499989629,0
89kh34yu75hv3l2,40,0,1.91503999987617,1
89kh34yu75hv3l2,75,1,5.25887000001967,0
89kh34yu75hv3l2,95,1,1.94783499999903,0
89kh34yu75hv3l2,133,0,2.37426499999128,1
89kh34yu75hv3l2,167,1,1.51032499992289,0
89kh34yu75hv3l2,175,1,2.21167500014417,0
89kh34yu75hv3l2,184,1,1.31680000014603,0
89kh34yu75hv3l2,187,0,1.26927500008605,1
89kh34yu75hv3l2,212,0,2.5894800000824,1
89kh34yu75hv3l2,219,1,3.0443100000266,0
89kh34yu75hv3l2,252,1,5.50658000004478,0
89kh34yu75hv3l2,259,0,2.40435500000604,1
89kh34yu75hv3l2,270,0,3.04550500004552,1
89kh34yu75hv3l2,277,1,2.55756499990821,0
89kh34yu75hv3l2,279,1,8.18420500005595,0
89kh34yu75hv3l2,340,1,5.11504499986768,0
89kh34yu75hv3l2,364,0,1.4929200001061,1
89kh34yu75hv3l2,384,1,1.80398999992758,0
89kh34yu75hv3l2,400,1,2.28477500006557,0
89kh34yu75hv3l2,413,1,2.0791100000497,0
89kh34yu75hv3l2,428,1,2.02164499997161,0
89kh34yu75hv3l2,445,1,3.33981000003405,0
89kh34yu75hv3l2,448,0,4.29017499997281,1
89kh34yu75hv3l2,464,0,2.66760499984957,1
89kh34yu75hv3l2,474,1,3.57872999995016,0
89kh34yu75hv3l2,496,0,1.92411999986507,1
89kh34yu75hv3l2,502,0,1.72485000011511,1
89kh34yu75hv3l2,540,1,2.20392999984324,0
89kh34yu75hv3l2,587,0,1.87684499984607,1
89kh34yu75hv3l2,609,1,1.89161999989301,0
89kh34yu75hv3l2,619,0,0.284250000026077,1
89kh34yu75hv3l2,646,1,1.52180499979295,0
e4m2hk9m4ldb8qq,5,1,0.771260000008624,0
e4m2hk9m4ldb8qq,9,1,1.10214500001166,0
e4m2hk9m4ldb8qq,21,0,0.918640000047162,1
e4m2hk9m4ldb8qq,80,0,0.890414999972563,1
e4m2hk9m4ldb8qq,91,1,1.14770999999018,0
e4m2hk9m4ldb8qq,93,0,0.734515000018291,1
e4m2hk9m4ldb8qq,123,0,1.55706500000088,1
e4m2hk9m4ldb8qq,134,0,0.998620000027586,1
e4m2hk9m4ldb8qq,139,1,0.848410000035074,0
e4m2hk9m4ldb8qq,151,1,0.596120000001974,0
e4m2hk9m4ldb8qq,157,1,0.5775099999737,0
e4m2hk9m4ldb8qq,176,1,0.594270000001416,0
e4m2hk9m4ldb8qq,256,0,0.649144999973942,1
e4m2hk9m4ldb8qq,260,0,0.679564999998547,1
e4m2hk9m4ldb8qq,265,0,0.545794999983627,1
e4m2hk9m4ldb8qq,274,0,0.595209999999497,1
e4m2hk9m4ldb8qq,299,0,0.698680000030436,1
e4m2hk9m4ldb8qq,319,0,0.675179999961983,1
e4m2hk9m4ldb8qq,368,0,0.614430000016,1
e4m2hk9m4ldb8qq,379,0,0.562640000018291,1
e4m2hk9m4ldb8qq,392,0,0.877470000006724,1
e4m2hk9m4ldb8qq,393,0,0.586240000033286,1
e4m2hk9m4ldb8qq,407,0,0.788245000003371,1
e4m2hk9m4ldb8qq,427,0,0.517439999966882,1
e4m2hk9m4ldb8qq,439,0,0.632969999976922,1
e4m2hk9m4ldb8qq,445,0,0.582745000021532,1
e4m2hk9m4ldb8qq,507,0,0.515675000031479,1
e4m2hk9m4ldb8qq,508,0,0.496564999979455,1
e4m2hk9m4ldb8qq,521,0,0.498250000004191,1
e4m2hk9m4ldb8qq,525,0,0.452519999991637,1
e4m2hk9m4ldb8qq,540,1,2.24212999996962,0
e4m2hk9m4ldb8qq,560,1,0.730349999968894,0
e4m2hk9m4ldb8qq,576,1,0.833349999971688,0
e4m2hk9m4ldb8qq,581,1,0.731124999991152,0
e4m2hk9m4ldb8qq,598,1,0.92655500001274,0
e4m2hk9m4ldb8qq,620,1,0.654240000003483,0
e8mone1mz96y0ht,11,1,0.573160000145435,0
e8mone1mz96y0ht,25,1,0.90989000024274,0
e8mone1mz96y0ht,39,1,0.7256950000301,0
e8mone1mz96y0ht,44,1,0.764854999724776,0
e8mone1mz96y0ht,45,1,0.501310000196099,0
e8mone1mz96y0ht,81,0,8.88678500009701,1
e8mone1mz96y0ht,111,0,0.492769999895245,1
e8mone1mz96y0ht,115,0,0.51602999959141,1
e8mone1mz96y0ht,131,1,0.798090000171214,0
e8mone1mz96y0ht,137,0,0.748724999837577,1
e8mone1mz96y0ht,154,0,0.57357499981299,1
e8mone1mz96y0ht,156,1,0.429140000138432,0
e8mone1mz96y0ht,219,0,0.467769999988377,1
e8mone1mz96y0ht,221,0,0.387339999899268,1
e8mone1mz96y0ht,230,0,0.364895000122488,1
e8mone1mz96y0ht,246,0,0.35759500041604,1
e8mone1mz96y0ht,249,0,0.388360000215471,1
e8mone1mz96y0ht,317,0,0.284059999976307,1
e8mone1mz96y0ht,345,0,0.757670000195503,1
e8mone1mz96y0ht,350,0,2.26885000010952,1
e8mone1mz96y0ht,359,0,5.66917499992997,1
e8mone1mz96y0ht,363,0,0.741154999937862,1
e8mone1mz96y0ht,375,1,0.869540000334382,0
e8mone1mz96y0ht,415,0,0.621029999572784,1
e8mone1mz96y0ht,454,0,0.468125000130385,1
e8mone1mz96y0ht,459,0,0.491055000107735,1
e8mone1mz96y0ht,511,0,0.629939999897033,1
e8mone1mz96y0ht,524,0,0.48429000005126,1
e8mone1mz96y0ht,528,0,0.48547499999404,1
e8mone1mz96y0ht,537,0,1.01385500002652,1
e8mone1mz96y0ht,546,0,0.820660000201315,1
e8mone1mz96y0ht,566,0,0.460299999918789,1
e8mone1mz96y0ht,575,0,0.781154999975115,1
e8mone1mz96y0ht,588,0,0.404329999815673,1
e8mone1mz96y0ht,622,0,0.189429999794811,1
e8mone1mz96y0ht,627,0,0.212660000193864,1
eb9dmlt2l4yk2tm,10,0,0.540834999992512,1
eb9dmlt2l4yk2tm,21,0,0.4867249999661,1
eb9dmlt2l4yk2tm,30,0,0.494214999955148,1
eb9dmlt2l4yk2tm,62,0,0.677515000104904,1
eb9dmlt2l4yk2tm,70,0,0.735100000048988,1
eb9dmlt2l4yk2tm,79,0,0.52581999998074,1
eb9dmlt2l4yk2tm,114,0,0.797219999949448,1
eb9dmlt2l4yk2tm,126,0,0.752115000039339,1
eb9dmlt2l4yk2tm,136,0,0.860974999959581,1
eb9dmlt2l4yk2tm,182,0,0.571959999972023,1
eb9dmlt2l4yk2tm,199,0,0.583120000083,1
eb9dmlt2l4yk2tm,202,0,0.764844999997877,1
eb9dmlt2l4yk2tm,222,0,0.990400000009686,1
eb9dmlt2l4yk2tm,237,1,1.75167000002693,0
eb9dmlt2l4yk2tm,241,1,0.822140000062063,0
eb9dmlt2l4yk2tm,297,0,0.852835000026971,1
eb9dmlt2l4yk2tm,317,0,1.54896500008181,1
eb9dmlt2l4yk2tm,318,0,1.13374000007752,1
eb9dmlt2l4yk2tm,341,0,0.548934999969788,1
eb9dmlt2l4yk2tm,392,1,1.32737000007182,0
eb9dmlt2l4yk2tm,394,1,0.845625000074506,0
eb9dmlt2l4yk2tm,405,1,0.630254999967292,0
eb9dmlt2l4yk2tm,416,1,0.66898499999661,0
eb9dmlt2l4yk2tm,431,1,1.17434499994852,0
eb9dmlt2l4yk2tm,440,0,1.0685999999987,1
eb9dmlt2l4yk2tm,459,0,0.911590000032447,1
eb9dmlt2l4yk2tm,478,0,0.810205000103451,1
eb9dmlt2l4yk2tm,480,0,0.597414999967441,1
eb9dmlt2l4yk2tm,512,0,0.607444999972358,1
eb9dmlt2l4yk2tm,515,0,0.637125000008382,1
eb9dmlt2l4yk2tm,550,0,0.693725000019185,1
eb9dmlt2l4yk2tm,556,0,1.41343499999493,1
eb9dmlt2l4yk2tm,583,0,0.86055999994278,1
eb9dmlt2l4yk2tm,602,0,0.685960000031628,1
eb9dmlt2l4yk2tm,609,0,0.757520000101067,1
eb9dmlt2l4yk2tm,618,0,0.829774999991059,1
f9byso4c456q4x7,35,0,0.636354999995092,1
f9byso4c456q4x7,38,0,1.79574499998125,1
f9byso4c456q4x7,56,0,9.28025499999058,1
f9byso4c456q4x7,61,0,2.08392000000458,1
f9byso4c456q4x7,73,0,0.771275000006426,1
f9byso4c456q4x7,76,0,0.840170000010403,1
f9byso4c456q4x7,141,0,4.69269000002532,1
f9byso4c456q4x7,153,0,1.90194500001962,1
f9byso4c456q4x7,175,1,1.1877150000073,0
f9byso4c456q4x7,178,0,1.62729999999283,1
f9byso4c456q4x7,207,0,1.16359999999986,1
f9byso4c456q4x7,208,0,4.32350500000757,1
f9byso4c456q4x7,247,1,0.947259999986272,0
f9byso4c456q4x7,255,1,1.03521500001079,0
f9byso4c456q4x7,272,1,0.778969999984838,0
f9byso4c456q4x7,277,0,1.59951499997987,1
f9byso4c456q4x7,300,1,1.97388000000501,0
f9byso4c456q4x7,359,1,1.17106999998214,0
f9byso4c456q4x7,374,1,1.92783500000951,0
f9byso4c456q4x7,382,1,0.698990000004415,0
f9byso4c456q4x7,389,1,2.0282700000098,0
f9byso4c456q4x7,401,1,0.693549999996321,0
f9byso4c456q4x7,417,1,0.821219999983441,0
f9byso4c456q4x7,435,0,1.43690000000061,1
f9byso4c456q4x7,443,0,0.830919999978505,1
f9byso4c456q4x7,455,0,0.72762000001967,1
f9byso4c456q4x7,474,0,1.33155499998247,1
f9byso4c456q4x7,481,0,0.829060000018217,1
f9byso4c456q4x7,488,0,0.651634999987437,1
f9byso4c456q4x7,554,0,0.64219500002265,1
f9byso4c456q4x7,564,0,0.875055000010878,1
f9byso4c456q4x7,565,0,0.989069999981672,1
f9byso4c456q4x7,615,0,1.09867499998678,1
f9byso4c456q4x7,645,0,0.699995000002906,1
hge6w0jl9ek17eg,49,1,1.15699000004679,0
hge6w0jl9ek17eg,60,0,1.17470499966294,1
hge6w0jl9ek17eg,62,0,1.17634500004351,1
hge6w0jl9ek17eg,76,0,1.15583499986678,1
hge6w0jl9ek17eg,83,0,0.89797000028193,1
hge6w0jl9ek17eg,88,0,1.13665499957278,1
hge6w0jl9ek17eg,109,0,1.25829999987036,1
hge6w0jl9ek17eg,122,1,0.977384999860078,0
hge6w0jl9ek17eg,132,0,1.31783499987796,1
hge6w0jl9ek17eg,145,1,1.04838000005111,0
hge6w0jl9ek17eg,154,0,1.04774999991059,1
hge6w0jl9ek17eg,209,0,1.47598000010476,1
hge6w0jl9ek17eg,222,1,1.09370000008494,0
hge6w0jl9ek17eg,254,0,1.24945500027388,1
hge6w0jl9ek17eg,271,1,1.13745999988168,0
hge6w0jl9ek17eg,297,0,0.956520000007004,1
hge6w0jl9ek17eg,305,0,1.01420499989763,1
hge6w0jl9ek17eg,306,1,1.18154999986291,0
hge6w0jl9ek17eg,336,1,1.57572000008076,0
hge6w0jl9ek17eg,353,1,1.31580500025302,0
hge6w0jl9ek17eg,355,1,1.51707499986514,0
hge6w0jl9ek17eg,362,0,0.989255000371486,1
hge6w0jl9ek17eg,374,0,1.11545500019565,1
hge6w0jl9ek17eg,422,1,1.31731000030413,0
hge6w0jl9ek17eg,446,1,1.41751000005752,0
hge6w0jl9ek17eg,496,0,0.786090000066906,1
hge6w0jl9ek17eg,513,0,1.11109000025317,1
hge6w0jl9ek17eg,520,0,1.27748000016436,1
hge6w0jl9ek17eg,521,0,1.08468500012532,1
hge6w0jl9ek17eg,533,0,1.83628499973565,1
hge6w0jl9ek17eg,563,1,1.05291000008583,0
hge6w0jl9ek17eg,564,0,1.0872349999845,1
hge6w0jl9ek17eg,571,0,1.10503500001505,1
hge6w0jl9ek17eg,578,0,1.25412999978289,1
hge6w0jl9ek17eg,594,1,1.44771500024945,0
hge6w0jl9ek17eg,626,0,1.30679999990389,1
l2fss122h7fhgav,20,0,0.939,1
l2fss122h7fhgav,54,0,0.701,1
l2fss122h7fhgav,57,0,0.587,1
l2fss122h7fhgav,67,0,0.571,1
l2fss122h7fhgav,91,0,0.696,1
l2fss122h7fhgav,101,0,0.581,1
l2fss122h7fhgav,124,0,0.587,1
l2fss122h7fhgav,137,0,0.662,1
l2fss122h7fhgav,143,0,0.598,1
l2fss122h7fhgav,163,0,0.722,1
l2fss122h7fhgav,164,0,0.648,1
l2fss122h7fhgav,178,0,0.636,1
l2fss122h7fhgav,225,0,0.703,1
l2fss122h7fhgav,247,0,0.726,1
l2fss122h7fhgav,258,0,0.722,1
l2fss122h7fhgav,265,0,0.717,1
l2fss122h7fhgav,284,0,0.872,1
l2fss122h7fhgav,317,0,0.721,1
l2fss122h7fhgav,330,0,0.756,1
l2fss122h7fhgav,359,0,0.687,1
l2fss122h7fhgav,367,0,0.927,1
l2fss122h7fhgav,368,0,0.836,1
l2fss122h7fhgav,387,0,0.741,1
l2fss122h7fhgav,396,0,0.698,1
l2fss122h7fhgav,482,1,0.963,0
l2fss122h7fhgav,484,1,1.016,0
l2fss122h7fhgav,503,1,0.713,0
l2fss122h7fhgav,510,1,1.098,0
l2fss122h7fhgav,514,0,0.636,1
l2fss122h7fhgav,523,1,1.167,0
l2fss122h7fhgav,540,0,1.213,1
l2fss122h7fhgav,555,0,1.118,1
l2fss122h7fhgav,557,1,1.142,0
l2fss122h7fhgav,566,0,0.747,1
l2fss122h7fhgav,581,0,2.19,1
l2fss122h7fhgav,592,0,0.692,1
o7tru8lzgbrtk1b,5,1,0.606769999983953,0
o7tru8lzgbrtk1b,54,1,0.932215000008,0
o7tru8lzgbrtk1b,76,0,0.987545000010868,1
o7tru8lzgbrtk1b,96,0,1.19460499999695,1
o7tru8lzgbrtk1b,97,1,1.15187499998137,0
o7tru8lzgbrtk1b,107,1,0.871799999993527,0
o7tru8lzgbrtk1b,111,0,0.8125,1
o7tru8lzgbrtk1b,127,0,0.620995000004768,1
o7tru8lzgbrtk1b,171,0,0.664440000022296,1
o7tru8lzgbrtk1b,180,0,0.660464999993565,1
o7tru8lzgbrtk1b,202,0,0.620865000004415,1
o7tru8lzgbrtk1b,207,0,0.529125000000931,1
o7tru8lzgbrtk1b,229,1,0.831454999977723,0
o7tru8lzgbrtk1b,241,1,0.851615000021411,0
o7tru8lzgbrtk1b,269,1,0.805215000000317,0
o7tru8lzgbrtk1b,302,1,1.07579500001157,0
o7tru8lzgbrtk1b,315,1,0.723675000015646,0
o7tru8lzgbrtk1b,317,1,0.702455000020564,0
o7tru8lzgbrtk1b,325,0,0.677089999982854,1
o7tru8lzgbrtk1b,332,0,0.676840000000084,1
o7tru8lzgbrtk1b,360,0,1.03307000000495,1
o7tru8lzgbrtk1b,365,0,0.795095000008587,1
o7tru8lzgbrtk1b,407,0,0.670899999997346,1
o7tru8lzgbrtk1b,430,0,0.804044999997132,1
o7tru8lzgbrtk1b,448,0,0.880344999983208,1
o7tru8lzgbrtk1b,492,0,0.61308999999892,1
o7tru8lzgbrtk1b,501,0,0.684195000008913,1
o7tru8lzgbrtk1b,507,0,0.66537000000244,1
o7tru8lzgbrtk1b,508,0,0.602375000016764,1
o7tru8lzgbrtk1b,516,0,0.633040000015171,1
o7tru8lzgbrtk1b,573,0,0.531844999990426,1
o7tru8lzgbrtk1b,605,0,0.562009999994189,1
o7tru8lzgbrtk1b,609,0,0.59357500000624,1
o7tru8lzgbrtk1b,631,0,0.66310499998508,1
o7tru8lzgbrtk1b,635,0,0.620109999988927,1
o7tru8lzgbrtk1b,645,0,0.780544999986887,1
pag1d3yorjakd11,5,0,0.940999999991618,1
pag1d3yorjakd11,59,0,3.35100000002421,1
pag1d3yorjakd11,62,0,0.462999999988824,1
pag1d3yorjakd11,71,1,0.319000000017695,0
pag1d3yorjakd11,84,1,0.126000000047497,0
pag1d3yorjakd11,107,1,0.244999999995343,0
pag1d3yorjakd11,110,1,5.10800000000745,0
pag1d3yorjakd11,145,0,0.215000000083819,1
pag1d3yorjakd11,158,0,0.25,1
pag1d3yorjakd11,205,1,0.116999999969266,0
pag1d3yorjakd11,209,1,0.269999999902211,0
pag1d3yorjakd11,227,1,7.43299999996088,0
pag1d3yorjakd11,285,1,0.374000000068918,0
pag1d3yorjakd11,296,0,0.188999999896623,1
pag1d3yorjakd11,300,1,0.307999999960884,0
pag1d3yorjakd11,301,1,0.24800000002142,0
pag1d3yorjakd11,306,1,0.253000000026077,0
pag1d3yorjakd11,331,1,0.253000000026077,0
pag1d3yorjakd11,333,1,0.302000000025146,0
pag1d3yorjakd11,336,0,0.788999999989756,1
pag1d3yorjakd11,386,1,0.118000000016764,0
pag1d3yorjakd11,411,1,0.182000000029802,0
pag1d3yorjakd11,421,1,0.111000000033528,0
pag1d3yorjakd11,473,1,0.717999999993481,0
pag1d3yorjakd11,477,1,0.707999999984168,0
pag1d3yorjakd11,487,1,0.342999999993481,0
pag1d3yorjakd11,515,0,0.452999999979511,1
pag1d3yorjakd11,526,0,0.308999999891967,1
pag1d3yorjakd11,538,0,0.253999999957159,1
pag1d3yorjakd11,563,1,0.238999999943189,0
pag1d3yorjakd11,570,1,0.165999999968335,0
pag1d3yorjakd11,608,1,0.123999999952503,0
pag1d3yorjakd11,635,1,0.303000000072643,0
pag1d3yorjakd11,638,1,0.365999999921769,0
r2fdkawkrszpm2y,60,1,0.279390000039712,0
r2fdkawkrszpm2y,67,1,0.360914999968372,0
r2fdkawkrszpm2y,89,1,0.617619999917224,0
r2fdkawkrszpm2y,103,1,0.502934999996796,0
r2fdkawkrszpm2y,105,0,0.32605000003241,1
r2fdkawkrszpm2y,107,1,0.414720000000671,0
r2fdkawkrszpm2y,138,1,0.541495000012219,0
r2fdkawkrszpm2y,142,1,0.570550000062212,0
r2fdkawkrszpm2y,158,1,0.51769000000786,0
r2fdkawkrszpm2y,194,1,0.90617500001099,0
r2fdkawkrszpm2y,196,1,0.679860000032932,0
r2fdkawkrszpm2y,213,1,0.626579999923706,0
r2fdkawkrszpm2y,224,1,0.585520000080578,0
r2fdkawkrszpm2y,226,1,0.549725000048056,0
r2fdkawkrszpm2y,229,1,0.81594000000041,0
r2fdkawkrszpm2y,246,0,1.00806999998167,1
r2fdkawkrszpm2y,249,1,0.879450000007637,0
r2fdkawkrszpm2y,262,1,0.657394999987446,0
r2fdkawkrszpm2y,345,0,0.524985000025481,1
r2fdkawkrszpm2y,361,0,0.569905000040308,1
r2fdkawkrszpm2y,378,0,0.535954999970272,1
r2fdkawkrszpm2y,392,0,0.643449999974109,1
r2fdkawkrszpm2y,416,0,0.659639999968931,1
r2fdkawkrszpm2y,429,0,0.14270999992732,1
r2fdkawkrszpm2y,534,1,0.166874999995343,0
ru85vd4b0z0e67b,10,0,0.62489999999525,1
ru85vd4b0z0e67b,25,0,0.553629999980331,1
ru85vd4b0z0e67b,27,0,0.600770000019111,1
ru85vd4b0z0e67b,39,0,0.611499999999069,1
ru85vd4b0z0e67b,80,0,0.510125000029802,1
ru85vd4b0z0e67b,82,0,0.551995000045281,1
ru85vd4b0z0e67b,116,0,1.32735999999568,1
ru85vd4b0z0e67b,133,1,0.717000000004191,0
ru85vd4b0z0e67b,136,1,0.809739999996964,0
ru85vd4b0z0e67b,144,0,0.706440000038128,1
ru85vd4b0z0e67b,178,1,1.21291999996174,0
ru85vd4b0z0e67b,195,1,0.59023500001058,0
ru85vd4b0z0e67b,218,1,2.19793500000378,0
ru85vd4b0z0e67b,220,1,2.03285499999765,0
ru85vd4b0z0e67b,221,1,0.662704999966081,0
ru85vd4b0z0e67b,223,0,0.878700000001118,1
ru85vd4b0z0e67b,290,0,0.589775000000373,1
ru85vd4b0z0e67b,291,0,0.537884999997914,1
ru85vd4b0z0e67b,328,0,1.27531500003533,1
ru85vd4b0z0e67b,350,0,1.93386500002816,1
ru85vd4b0z0e67b,398,0,0.766405000002123,1
ru85vd4b0z0e67b,402,0,0.62428499996895,1
ru85vd4b0z0e67b,421,0,0.583064999955241,1
ru85vd4b0z0e67b,422,0,0.524689999991097,1
ru85vd4b0z0e67b,439,0,0.661419999960344,1
ru85vd4b0z0e67b,469,0,0.551945000013802,1
ru85vd4b0z0e67b,473,0,0.538135000038892,1
ru85vd4b0z0e67b,491,0,0.83365500002401,1
ru85vd4b0z0e67b,532,0,0.555235000036191,1
ru85vd4b0z0e67b,538,0,0.566195000021253,1
ru85vd4b0z0e67b,558,0,0.708195000013802,1
ru85vd4b0z0e67b,570,0,0.50859500002116,1
ru85vd4b0z0e67b,576,0,0.533960000029765,1
ru85vd4b0z0e67b,590,0,0.584195000003092,1
ru85vd4b0z0e67b,597,0,0.58383000001777,1
ru85vd4b0z0e67b,625,0,0.483685000042897,1
t0pbeujyo5lvwn2,19,0,0.730290000035893,1
t0pbeujyo5lvwn2,21,0,0.891140000021551,1
t0pbeujyo5lvwn2,29,0,0.807684999948833,1
t0pbeujyo5lvwn2,45,0,0.731665000028443,1
t0pbeujyo5lvwn2,54,0,0.746505000046454,1
t0pbeujyo5lvwn2,57,0,0.665474999987055,1
t0pbeujyo5lvwn2,108,0,0.861024999991059,1
t0pbeujyo5lvwn2,132,1,1.115690000006,0
t0pbeujyo5lvwn2,134,1,0.760364999994636,0
t0pbeujyo5lvwn2,143,1,0.708975000015926,0
t0pbeujyo5lvwn2,162,1,0.780335000017658,0
t0pbeujyo5lvwn2,171,1,0.472444999963045,0
t0pbeujyo5lvwn2,231,0,0.789530000009108,1
t0pbeujyo5lvwn2,234,1,2.10284000000684,0
t0pbeujyo5lvwn2,278,0,0.783170000009704,1
t0pbeujyo5lvwn2,293,0,0.703930000017863,1
t0pbeujyo5lvwn2,300,0,0.709060000022873,1
t0pbeujyo5lvwn2,310,0,0.653370000014547,1
t0pbeujyo5lvwn2,341,0,0.515654999995604,1
t0pbeujyo5lvwn2,347,0,0.746275000041351,1
t0pbeujyo5lvwn2,385,0,0.522824999992736,1
t0pbeujyo5lvwn2,409,0,0.60099500004435,1
t0pbeujyo5lvwn2,415,0,0.765704999968875,1
t0pbeujyo5lvwn2,428,0,0.550370000011753,1
t0pbeujyo5lvwn2,436,0,0.812809999973979,1
t0pbeujyo5lvwn2,474,0,0.534634999989066,1
t0pbeujyo5lvwn2,479,0,0.574910000024829,1
t0pbeujyo5lvwn2,488,0,0.612670000002254,1
t0pbeujyo5lvwn2,494,0,0.558284999977332,1
t0pbeujyo5lvwn2,508,0,0.682009999989532,1
t0pbeujyo5lvwn2,541,0,0.977285000029951,1
t0pbeujyo5lvwn2,553,0,0.732360000023618,1
t0pbeujyo5lvwn2,603,1,0.859624999982771,0
t0pbeujyo5lvwn2,607,0,1.02684500004398,1
t0pbeujyo5lvwn2,611,0,1.18777499999851,1
t0pbeujyo5lvwn2,644,0,3.30058500001906,1
tw6etx4n1gd33bq,21,0,0.685399999842048,1
tw6etx4n1gd33bq,22,0,0.613680000416935,1
tw6etx4n1gd33bq,93,0,0.684510000050068,1
tw6etx4n1gd33bq,94,0,1.37964500021189,1
tw6etx4n1gd33bq,95,0,0.49375499971211,1
tw6etx4n1gd33bq,99,0,1.96564999967814,1
tw6etx4n1gd33bq,118,0,0.790179999545217,1
tw6etx4n1gd33bq,120,0,0.676599999889731,1
tw6etx4n1gd33bq,136,0,0.542439999990165,1
tw6etx4n1gd33bq,137,0,0.610650000162423,1
tw6etx4n1gd33bq,159,0,0.522644999437034,1
tw6etx4n1gd33bq,174,0,0.518269999884069,1
tw6etx4n1gd33bq,216,1,1.55092499963939,0
tw6etx4n1gd33bq,229,1,0.878739999607205,0
tw6etx4n1gd33bq,242,0,0.810589999891818,1
tw6etx4n1gd33bq,246,0,0.645314999856055,1
tw6etx4n1gd33bq,318,1,0.715899999253452,0
tw6etx4n1gd33bq,322,0,0.858275000005961,1
tw6etx4n1gd33bq,328,0,0.540955000557005,1
tw6etx4n1gd33bq,332,0,0.557450000196695,1
tw6etx4n1gd33bq,352,0,0.925700000487268,1
tw6etx4n1gd33bq,356,0,0.526414999738336,1
tw6etx4n1gd33bq,375,0,0.555250000208616,1
tw6etx4n1gd33bq,426,0,0.973395000211894,1
tw6etx4n1gd33bq,433,0,0.948605000041425,1
tw6etx4n1gd33bq,466,0,0.709564999677241,1
tw6etx4n1gd33bq,471,0,1.82018500007689,1
tw6etx4n1gd33bq,494,0,1.51068499963731,1
tw6etx4n1gd33bq,505,0,0.852270000614226,1
tw6etx4n1gd33bq,533,0,1.53223999962211,1
tw6etx4n1gd33bq,558,0,0.714314999990165,1
tw6etx4n1gd33bq,564,0,0.603800000622869,1
tw6etx4n1gd33bq,602,1,5.39259499963373,0
tw6etx4n1gd33bq,610,1,1.66189500037581,0
tw6etx4n1gd33bq,614,0,1.06216500047594,1
tw6etx4n1gd33bq,615,0,1.00672000087798,1
u5a7q17ewe1s819,28,1,0.990434999926947,0
u5a7q17ewe1s819,62,1,0.870104999979958,0
u5a7q17ewe1s819,74,1,1.02182999998331,0
u5a7q17ewe1s819,80,1,1.13353999995161,0
u5a7q17ewe1s819,88,1,5.73454999993555,0
u5a7q17ewe1s819,103,1,0.869254999910481,0
u5a7q17ewe1s819,112,0,0.49442000000272,1
u5a7q17ewe1s819,117,0,0.56590999988839,1
u5a7q17ewe1s819,127,0,0.645935000036843,1
u5a7q17ewe1s819,154,0,0.574184999917634,1
u5a7q17ewe1s819,184,0,0.630084999953397,1
u5a7q17ewe1s819,199,0,0.550844999961555,1
u5a7q17ewe1s819,239,0,1.15803500008769,1
u5a7q17ewe1s819,266,0,1.02900500001851,1
u5a7q17ewe1s819,271,0,0.902890000026673,1
u5a7q17ewe1s819,288,0,0.823004999896511,1
u5a7q17ewe1s819,298,0,1.20668500009924,1
u5a7q17ewe1s819,302,0,1.17344500008039,1
u5a7q17ewe1s819,326,0,1.26205500005744,1
u5a7q17ewe1s819,327,1,1.77394000010099,0
u5a7q17ewe1s819,329,0,1.60594500007574,1
u5a7q17ewe1s819,364,1,2.11734500003513,0
u5a7q17ewe1s819,396,1,0.933899999945424,0
u5a7q17ewe1s819,421,1,1.09494000009727,0
u5a7q17ewe1s819,442,0,0.630109999910928,1
u5a7q17ewe1s819,452,0,0.653180000022985,1
u5a7q17ewe1s819,475,0,0.782404999947175,1
u5a7q17ewe1s819,487,0,0.661199999973178,1
u5a7q17ewe1s819,489,0,0.805050000082701,1
u5a7q17ewe1s819,534,0,0.605574999935925,1
u5a7q17ewe1s819,542,0,1.21466000005603,1
u5a7q17ewe1s819,559,0,1.12551000004169,1
u5a7q17ewe1s819,568,0,1.23820500005968,1
u5a7q17ewe1s819,572,0,1.04548500000965,1
u5a7q17ewe1s819,616,0,1.10143999999855,1
u5a7q17ewe1s819,641,0,0.973495000042021,1
vem4vdgqgy8wr92,10,0,0.684710000175983,1
vem4vdgqgy8wr92,42,0,0.539415000006557,1
vem4vdgqgy8wr92,46,0,0.540604999987409,1
vem4vdgqgy8wr92,63,0,0.610175000037998,1
vem4vdgqgy8wr92,71,0,0.669939999934286,1
vem4vdgqgy8wr92,105,0,0.635040000081062,1
vem4vdgqgy8wr92,115,1,1.14141000015661,0
vem4vdgqgy8wr92,120,0,1.34896499989554,1
vem4vdgqgy8wr92,135,1,0.596569999819621,0
vem4vdgqgy8wr92,156,1,0.696920000016689,0
vem4vdgqgy8wr92,178,1,0.726430000038818,0
vem4vdgqgy8wr92,212,1,0.956929999869317,0
vem4vdgqgy8wr92,226,0,0.83329000021331,1
vem4vdgqgy8wr92,279,0,1.49392500007525,1
vem4vdgqgy8wr92,293,0,0.571430000010878,1
vem4vdgqgy8wr92,295,0,0.681600000010803,1
vem4vdgqgy8wr92,305,0,0.589734999928623,1
vem4vdgqgy8wr92,311,0,0.672825000016019,1
vem4vdgqgy8wr92,324,0,0.56252000015229,1
vem4vdgqgy8wr92,350,0,0.597025000024587,1
vem4vdgqgy8wr92,370,0,0.679024999961257,1
vem4vdgqgy8wr92,377,0,0.564430000027642,1
vem4vdgqgy8wr92,395,0,0.477300000144169,1
vem4vdgqgy8wr92,403,0,0.624904999975115,1
vem4vdgqgy8wr92,481,0,0.604980000061914,1
vem4vdgqgy8wr92,499,0,0.732094999868423,1
vem4vdgqgy8wr92,504,0,0.531220000004396,1
vem4vdgqgy8wr92,521,0,0.593345000175759,1
vem4vdgqgy8wr92,522,0,0.600175000028685,1
vem4vdgqgy8wr92,527,0,0.651855000061914,1
vem4vdgqgy8wr92,543,0,0.580929999938235,1
vem4vdgqgy8wr92,600,0,0.458434999920428,1
vem4vdgqgy8wr92,602,0,0.656740000005812,1
vem4vdgqgy8wr92,607,0,0.577710000099614,1
vem4vdgqgy8wr92,619,0,0.515679999953136,1
vem4vdgqgy8wr92,622,0,0.602614999981597,1
xa483tz58taay0j,6,0,0.758,1
xa483tz58taay0j,16,0,0.534,1
xa483tz58taay0j,26,0,0.558,1
xa483tz58taay0j,63,0,0.582,1
xa483tz58taay0j,82,0,0.486,1
xa483tz58taay0j,103,0,0.535,1
xa483tz58taay0j,110,0,0.853,1
xa483tz58taay0j,140,0,0.588,1
xa483tz58taay0j,155,0,0.606,1
xa483tz58taay0j,165,1,0.71,0
xa483tz58taay0j,182,0,0.606,1
xa483tz58taay0j,198,0,0.95,1
xa483tz58taay0j,237,1,0.894,0
xa483tz58taay0j,239,0,0.582,1
xa483tz58taay0j,242,0,0.558,1
xa483tz58taay0j,272,1,0.676,0
xa483tz58taay0j,301,1,0.75,0
xa483tz58taay0j,319,1,1.021,0
xa483tz58taay0j,329,0,0.83,1
xa483tz58taay0j,357,0,0.59,1
xa483tz58taay0j,400,0,0.558,1
xa483tz58taay0j,401,0,0.605,1
xa483tz58taay0j,428,0,0.526,1
xa483tz58taay0j,430,0,0.788,1
xa483tz58taay0j,459,0,0.463,1
xa483tz58taay0j,463,0,0.494,1
xa483tz58taay0j,464,0,0.557,1
xa483tz58taay0j,466,0,0.741,1
xa483tz58taay0j,500,0,0.669,1
xa483tz58taay0j,537,0,0.613,1
xa483tz58taay0j,541,0,0.567,1
xa483tz58taay0j,552,0,0.59,1
xa483tz58taay0j,553,0,0.524,1
xa483tz58taay0j,598,0,0.493,1
xa483tz58taay0j,602,0,0.524,1
xa483tz58taay0j,624,0,0.461,1
ygpcur698h4dcw5,325,0,0.615149999968708,1
z8pr3p93yugspv3,3,0,0.679325000150129,1
z8pr3p93yugspv3,30,0,0.42975000012666,1
z8pr3p93yugspv3,39,0,0.344350000144914,1
z8pr3p93yugspv3,90,0,0.408679999876767,1
z8pr3p93yugspv3,98,0,0.404335000086576,1
z8pr3p93yugspv3,105,0,0.40633499994874,1
z8pr3p93yugspv3,118,0,1.15039999992587,1
z8pr3p93yugspv3,120,0,0.517220000037924,1
z8pr3p93yugspv3,154,0,0.536240000044927,1
z8pr3p93yugspv3,182,1,1.16155000007711,0
z8pr3p93yugspv3,196,0,0.4036049998831,1
z8pr3p93yugspv3,203,1,1.19585999986157,0
z8pr3p93yugspv3,247,0,0.379710000008345,1
z8pr3p93yugspv3,284,0,0.383039999986067,1
z8pr3p93yugspv3,291,0,0.664975000079721,1
z8pr3p93yugspv3,300,0,0.365764999995008,1
z8pr3p93yugspv3,310,0,0.386175000108779,1
z8pr3p93yugspv3,322,0,0.581159999826923,1
z8pr3p93yugspv3,336,0,0.541859999997541,1
z8pr3p93yugspv3,368,0,0.619574999902397,1
z8pr3p93yugspv3,387,0,0.672354999929667,1
z8pr3p93yugspv3,396,0,0.798140000086278,1
z8pr3p93yugspv3,402,0,0.407910000067204,1
z8pr3p93yugspv3,425,0,0.601269999984652,1
z8pr3p93yugspv3,442,0,0.52415500022471,1
z8pr3p93yugspv3,474,0,0.682279999833554,1
z8pr3p93yugspv3,480,0,0.490699999965727,1
z8pr3p93yugspv3,485,0,0.611855000024661,1
z8pr3p93yugspv3,505,0,0.471695000072941,1
z8pr3p93yugspv3,539,0,0.619294999865815,1
z8pr3p93yugspv3,556,1,0.482304999837652,0
z8pr3p93yugspv3,577,0,0.447859999956563,1
z8pr3p93yugspv3,621,1,0.496275000041351,0
z8pr3p93yugspv3,623,1,0.50057000014931,0
z8pr3p93yugspv3,625,1,0.602389999898151,0
z8pr3p93yugspv3,642,0,0.34103999985382,1
